Folder: XRD

File: CuAg_meas.txt
Ag_Cu_polveri
2θ, ° Intensity, cps
20 1.085e+004
20.34 1.068e+004
20.68 1.080e+004
21.02 1.044e+004
21.36 1.057e+004
21.7 1.050e+004
22.04 1.027e+004
22.38 1.021e+004
22.72 1.027e+004
23.06 1.019e+004
23.4 1.002e+004
23.74 9.887e+003
24.08 9.912e+003
24.42 9.828e+003
24.76 9.705e+003
25.1 9.792e+003
25.44 9.713e+003
25.78 9.690e+003
26.12 9.632e+003
26.46 9.377e+003
26.8 9.387e+003
27.14 9.438e+003
27.48 9.263e+003
27.82 9.095e+003
28.16 9.393e+003
28.5 9.112e+003
28.84 9.112e+003
29.18 8.957e+003
29.52 8.965e+003
29.86 8.853e+003
30.2 8.763e+003
30.54 8.673e+003
30.88 8.895e+003
31.22 8.813e+003
31.56 8.795e+003
31.9 8.502e+003
32.24 8.608e+003
32.58 8.647e+003
32.92 8.655e+003
33.26 8.620e+003
33.6 8.997e+003
33.94 8.590e+003
34.28 8.403e+003
34.62 8.590e+003
34.96 8.215e+003
35.3 8.645e+003
35.64 8.547e+003
35.98 8.483e+003
36.32 8.398e+003
36.66 8.490e+003
37 8.763e+003
37.34 8.568e+003
37.68 8.802e+003
38.02 1.492e+004
38.36 1.132e+004
38.7 8.903e+003
39.04 8.687e+003
39.38 8.633e+003
39.72 8.552e+003
40.06 8.695e+003
40.4 8.493e+003
40.74 8.640e+003
41.08 8.463e+003
41.42 8.510e+003
41.76 9.083e+003
42.1 9.242e+003
42.44 9.455e+003
42.78 9.940e+003
43.12 2.482e+004
43.46 8.266e+004
43.8 1.081e+004
44.14 1.149e+004
44.48 1.110e+004
44.82 9.208e+003
45.16 8.942e+003
45.5 8.758e+003
45.84 8.713e+003
46.18 8.733e+003
46.52 8.550e+003
46.86 8.533e+003
47.2 8.718e+003
47.54 8.318e+003
47.88 8.513e+003
48.22 8.558e+003
48.56 8.722e+003
48.9 8.625e+003
49.24 8.732e+003
49.58 8.948e+003
49.92 9.475e+003
50.26 2.056e+004
50.6 4.750e+004
50.94 9.790e+003
51.28 8.772e+003
51.62 8.723e+003
51.96 8.445e+003
52.3 8.403e+003
52.64 8.612e+003
52.98 8.458e+003
53.32 8.428e+003
53.66 8.395e+003
54 8.248e+003
54.34 8.173e+003
54.68 8.363e+003
55.02 8.275e+003
55.36 8.467e+003
55.7 8.158e+003
56.04 8.038e+003
56.38 8.178e+003
56.72 8.140e+003
57.06 8.270e+003
57.4 8.265e+003
57.74 8.330e+003
58.08 8.187e+003
58.42 8.298e+003
58.76 8.345e+003
59.1 8.230e+003
59.44 8.107e+003
59.78 8.277e+003
60.12 8.493e+003
60.46 8.078e+003
60.8 8.042e+003
61.14 8.175e+003
61.48 8.305e+003
61.82 8.263e+003
62.16 8.167e+003
62.5 8.268e+003
62.84 8.265e+003
63.18 8.398e+003
63.52 8.313e+003
63.86 8.512e+003
64.2 8.807e+003
64.54 9.907e+003
64.88 8.747e+003
65.22 8.330e+003
65.56 8.462e+003
65.9 8.290e+003
66.24 8.250e+003
66.58 8.307e+003
66.92 8.315e+003
67.26 8.207e+003
67.6 8.355e+003
67.94 8.350e+003
68.28 8.448e+003
68.62 8.407e+003
68.96 8.172e+003
69.3 8.212e+003
69.64 8.525e+003
69.98 8.462e+003
70.32 8.320e+003
70.66 8.620e+003
71 8.415e+003
71.34 8.465e+003
71.68 8.462e+003
72.02 8.612e+003
72.36 8.632e+003
72.7 8.570e+003
73.04 8.540e+003
73.38 8.798e+003
73.72 9.958e+003
74.06 2.963e+004
74.4 2.163e+004
74.74 9.298e+003
75.08 8.868e+003
75.42 8.718e+003
75.76 8.842e+003
76.1 8.585e+003
76.44 8.720e+003
76.78 8.675e+003
77.12 9.495e+003
77.46 1.008e+004
77.8 9.190e+003
78.14 8.750e+003
78.48 8.755e+003
78.82 8.480e+003
79.16 8.603e+003
79.5 8.528e+003
79.84 8.547e+003
80.18 8.337e+003
80.52 8.350e+003
80.86 8.595e+003
81.2 8.787e+003
81.54 9.277e+003
81.88 8.847e+003
82.22 8.737e+003
82.56 8.780e+003
82.9 8.537e+003
83.24 8.560e+003
83.58 8.502e+003
83.92 8.753e+003
84.26 8.603e+003
84.6 8.453e+003
84.94 8.680e+003
85.28 8.497e+003
85.62 8.627e+003
85.96 8.770e+003
86.3 8.447e+003
86.64 8.845e+003
86.98 8.792e+003
87.32 8.895e+003
87.66 8.758e+003
88 8.583e+003
88.34 8.812e+003
88.68 8.880e+003
89.02 9.197e+003
89.36 9.697e+003
89.7 1.406e+004
90.04 2.681e+004
90.38 1.523e+004
90.72 9.738e+003
91.06 8.877e+003
91.4 8.827e+003
91.74 8.948e+003
92.08 8.755e+003
92.42 8.655e+003
92.76 8.750e+003
93.1 8.827e+003
93.44 8.640e+003
93.78 8.607e+003
94.12 8.910e+003
94.46 8.895e+003
94.8 9.352e+003
95.14 1.746e+004
95.48 1.362e+004
95.82 9.237e+003
96.16 8.700e+003
96.5 8.938e+003
96.84 8.685e+003
97.18 8.817e+003
97.52 8.937e+003
97.86 8.902e+003
98.2 8.632e+003
98.54 8.952e+003
98.88 9.047e+003
99.22 8.783e+003
99.56 8.543e+003
99.9 8.850e+003
100.24 8.637e+003
100.58 8.915e+003
100.92 8.885e+003
101.26 8.600e+003
101.6 9.008e+003
101.94 8.763e+003
102.28 8.877e+003
102.62 8.707e+003
102.96 8.872e+003
103.3 8.913e+003
103.64 8.738e+003
103.98 8.987e+003
104.32 8.732e+003
104.66 8.783e+003
105 8.742e+003
105.34 8.763e+003
105.68 8.650e+003
106.02 8.885e+003
106.36 9.090e+003
106.7 8.877e+003
107.04 8.815e+003
107.38 8.828e+003
107.72 8.727e+003
108.06 8.730e+003
108.4 8.697e+003
108.74 8.713e+003
109.08 8.892e+003
109.42 8.927e+003
109.76 9.000e+003
110.1 9.127e+003
110.44 9.317e+003
110.78 9.347e+003
111.12 9.125e+003
111.46 9.105e+003
111.8 8.793e+003
112.14 8.827e+003
112.48 8.920e+003
112.82 8.863e+003
113.16 9.012e+003
113.5 8.957e+003
113.84 8.812e+003
114.18 9.130e+003
114.52 9.252e+003
114.86 9.510e+003
115.2 9.377e+003
115.54 9.257e+003
115.88 9.355e+003
116.22 9.445e+003
116.56 9.815e+003
116.9 1.137e+004
117.24 1.070e+004
117.58 1.002e+004
117.92 9.360e+003
118.26 9.155e+003
118.6 9.140e+003
118.94 9.078e+003
119.28 9.137e+003
119.62 8.933e+003
119.96 9.208e+003
120 8.990e+003